dt: 0.01 CellNx: 4 b: 5.26 noParticles: 2048
Kinetic energy     Potential energy   Total energy   Temperature         Pressure   Average displacement    Radial distribution
3022.39            -17376.3               -14353.9         0.835143         0.91363         0.000255337
3121.96            -17056.6               -13934.7         0.98385         1.97848         0.00107999
2941.65            -16495.7               -13554.1         1.01626         3.57254         0.002468
2565.69            -15762.5               -13196.8         0.957568         5.51471         0.00429736
2192.64            -15048.3               -12855.7         0.835185         7.3215         0.00636238
2072.77            -14525.1               -12452.3         0.71375         8.60677         0.00846284
2350.73            -14275.2               -11924.4         0.674731         9.24341         0.0104947
2899.95            -14272.4               -11372.4         0.765213         9.36071         0.0124769
3408.41            -14311.5               -10903.1         0.943994         9.44982         0.0145071
3675.6            -14203.9               -10528.3         1.10951         9.90154         0.0166751
3702.93            -13925.8               -10222.9         1.19648         10.725         0.018993
3614.98            -13566               -9950.98         1.20538         11.6984         0.0213907
3561.14            -13217.6               -9656.44         1.17675         12.6138         0.0237614
3647.35            -12989.3               -9341.92         1.15923         13.2356         0.0260114
3892.92            -12891.7               -8998.78         1.18729         13.5598         0.0281012
4237.58            -12878.7               -8641.16         1.26723         13.7062         0.0300499
4587.61            -12869.7               -8282.07         1.37942         13.862         0.0319162
4855.29            -12812.8               -7957.46         1.49336         14.1361         0.0337649
5001.62            -12704.6               -7703.02         1.5805         14.5176         0.0356349
5059.25            -12581.5               -7522.22         1.62813         14.908         0.0375269
5082.43            -12436.6               -7354.12         1.64689         15.3272         0.0394173
5117.62            -12312.2               -7194.55         1.65444         15.6831         0.0412704
5195.66            -12233.9               -7038.24         1.66589         15.9237         0.0430593
5310.91            -12177.5               -6866.54         1.6913         16.1156         0.0447775
5448.68            -12116.9               -6668.17         1.72881         16.3213         0.0464319
5600.07            -12085.2               -6485.13         1.77366         16.461         0.0480336
5748.95            -12051               -6302.04         1.82294         16.6117         0.0496032
5873.96            -12033               -6159         1.8714         16.728         0.0511617
5937.56            -12001.3               -6063.79         1.9121         16.8767         0.0527319
5940.69            -11903.2               -5962.53         1.9328         17.1699         0.054317
5950.11            -11824.5               -5874.38         1.93382         17.3965         0.0558883
6016.13            -11777.9               -5761.8         1.93688         17.5442         0.0574208
6120.87            -11723.1               -5602.22         1.95837         17.7245         0.0589132
6226.54            -11673.8               -5447.22         1.99247         17.9009         0.0603772
6307.8            -11620.9               -5313.12         2.02687         18.0878         0.0618274
6344.77            -11542.4               -5197.67         2.05332         18.332         0.0632735
6345.92            -11466.2               -5120.31         2.06535         18.5585         0.0647088
6339.38            -11406.7               -5067.37         2.06573         18.731         0.066117
6364.38            -11354               -4989.57         2.0636         18.8792         0.0674811
6442.8            -11341.8               -4898.99         2.07174         18.9356         0.068794
6535.14            -11303.6               -4768.44         2.09727         19.0682         0.0700738
6606.74            -11290.4               -4683.7         2.12732         19.1447         0.0713358
6644.07            -11244.3               -4600.2         2.15063         19.2939         0.0725931
6657.76            -11160.6               -4502.83         2.16278         19.5219         0.0738464
6665.71            -11128.1               -4462.4         2.16724         19.6198         0.0750813
6665.23            -11102.4               -4437.17         2.16983         19.7002         0.0762915
6663.96            -11087.6               -4423.64         2.16967         19.7516         0.0774669
6689.45            -11097.2               -4407.73         2.16926         19.742         0.0785943
6744.87            -11111.7               -4366.85         2.17755         19.725         0.0796731
6821.61            -11128.2               -4306.58         2.1956         19.7089         0.0807141
6900.08            -11135.9               -4235.85         2.22058         19.7212         0.0817365
6949.82            -11106.7               -4156.91         2.24612         19.8279         0.0827619
6953.34            -11020.7               -4067.38         2.26231         20.0691         0.0837993
6926.03            -10937.7               -4011.68         2.26346         20.2923         0.0848321
6915.52            -10898.7               -3983.2         2.25457         20.401         0.0858309
6939.69            -10899.1               -3959.44         2.25115         20.4197         0.0867835
6995.16            -10892               -3896.88         2.25901         20.4648         0.0876945
7068.65            -10878               -3809.32         2.27707         20.5328         0.0885792
7125.86            -10839.8               -3713.95         2.30099         20.657         0.0894548
7163.4            -10820.6               -3657.21         2.31962         20.7225         0.0903304
7206.81            -10814.4               -3607.62         2.33184         20.745         0.0912102
7252.31            -10788.2               -3535.9         2.34597         20.8153         0.092111
7283.97            -10771.6               -3487.6         2.36078         20.8665         0.0930451
7295.08            -10778.8               -3483.72         2.37108         20.865         0.0940216
7265.62            -10815.5               -3549.86         2.3747         20.7968         0.0950403
7195.61            -10825.3               -3629.7         2.36511         20.7865         0.0960955
7132.95            -10790.7               -3657.79         2.34232         20.87         0.0971636
7130.4            -10766.5               -3636.12         2.32192         20.9268         0.0982154
7182.78            -10736.5               -3553.68         2.3211         21.0101         0.0992416
7250.2            -10730.5               -3480.32         2.33814         21.046         0.100255
7308.93            -10716.6               -3407.71         2.36009         21.1001         0.101278
7363.87            -10695.3               -3331.41         2.37921         21.1657         0.102326
7426.06            -10675               -3248.89         2.39709         21.2263         0.103406
7463.69            -10675.7               -3211.99         2.41734         21.2389         0.104537
7467.03            -10676.1               -3209.08         2.42959         21.2457         0.105732
7452.37            -10692.6               -3240.26         2.43067         21.2091         0.106985
7406.03            -10643.2               -3237.2         2.4259         21.3322         0.108294
7338.46            -10592.8               -3254.34         2.41082         21.4541         0.109641
7277.71            -10553.3               -3275.59         2.38882         21.5466         0.111005
7251.08            -10535.8               -3284.69         2.36905         21.5899         0.112366
7272.13            -10531.2               -3259.03         2.36038         21.6117         0.113713
7306.25            -10498.2               -3191.92         2.36723         21.711         0.115059
7341.45            -10445.7               -3104.25         2.37834         21.8516         0.116409
7407.28            -10410.9               -3003.66         2.38979         21.9424         0.117774
7494.62            -10442.2               -2947.63         2.41122         21.8831         0.11918
7554.47            -10482.5               -2928.07         2.43966         21.8148         0.120668
7548.54            -10505.3               -2956.76         2.45914         21.7886         0.122269
7483.06            -10500.3               -3017.28         2.45721         21.816         0.123988
7410.54            -10461.5               -3050.91         2.43589         21.9092         0.125805
7367.92            -10446.1               -3078.15         2.41229         21.9412         0.12769
7367.45            -10435               -3067.6         2.39841         21.967         0.129629
7399.15            -10442.9               -3043.79         2.39826         21.9586         0.13162
7419.09            -10457.1               -3038         2.40858         21.9493         0.13367
7392.25            -10454.7               -3062.47         2.41507         21.9819         0.135785
7344.22            -10411.7               -3067.53         2.40633         22.0989         0.13795
7321.44            -10413.7               -3092.26         2.3907         22.0977         0.140133
7331.5            -10433.9               -3102.38         2.38328         22.0515         0.142313
7360.2            -10409.2               -3048.96         2.38656         22.1135         0.144488
7390.08            -10363.2               -2973.09         2.3959         22.2278         0.146663
7396.57            -10330.7               -2934.16         2.40563         22.3103         0.148848
7378.66            -10300.6               -2921.99         2.40774         22.3808         0.151047
7368.01            -10263.4               -2895.44         2.40191         22.4602         0.153257
7396.76            -10263.6               -2866.83         2.39844         22.4531         0.155477
7451.98            -10248.4               -2796.42         2.4078         22.4986         0.157721
7501.27            -10229.6               -2728.33         2.42577         22.5678         0.160003
7510.74            -10222.3               -2711.57         2.44182         22.6136         0.162338
7475.16            -10215.5               -2740.37         2.4449         22.6489         0.164736
7430.44            -10198               -2767.61         2.43332         22.6965         0.167187
7389.9            -10190.6               -2800.74         2.41876         22.7165         0.169684
7361.97            -10188.9               -2826.97         2.40556         22.7213         0.172218
7361.17            -10244.3               -2883.14         2.39647         22.5927         0.174786
7366.82            -10257.8               -2890.99         2.39622         22.5719         0.17739
7358.65            -10257.3               -2898.67         2.39805         22.5836         0.180023
7344.43            -10246.3               -2901.84         2.39539         22.611         0.182676
7344.13            -10198.2               -2854.04         2.39076         22.7227         0.185339
7363.51            -10112.7               -2749.18         2.39067         22.9309         0.188009
7380.3            -10065.4               -2685.1         2.39698         23.0599         0.190684
7375.76            -10072.1               -2696.3         2.40244         23.0654         0.193369
7358.2            -10052.6               -2694.4         2.40096         23.1301         0.196061
7348.62            -10011.8               -2663.15         2.39525         23.2394         0.198748
7356.31            -9989.6               -2633.29         2.39213         23.2972         0.201427
7397.25            -10025.8               -2628.59         2.39463         23.2094         0.204108
7463.71            -10053.9               -2590.21         2.40796         23.1444         0.206819
7524.09            -10065               -2540.95         2.42959         23.1271         0.209585
7576.47            -10056               -2479.54         2.44925         23.1608         0.21242
7611.86            -10085.1               -2473.19         2.4663         23.1098         0.215332
7599.14            -10080.3               -2481.2         2.47782         23.1425         0.218324
7551.99            -10030.9               -2478.94         2.47368         23.2706         0.221387
7510.12            -9972.84               -2462.72         2.45833         23.4075         0.224498
7481.2            -9949.03               -2467.83         2.4447         23.4621         0.22764
7446.82            -9949.65               -2502.83         2.43529         23.4608         0.230806
7411.42            -9932.68               -2521.26         2.4241         23.4964         0.23399
7399.32            -9959.77               -2560.45         2.41257         23.4225         0.2372
7408.59            -9982.9               -2574.31         2.40863         23.3624         0.240452
7415.51            -9934               -2518.49         2.41165         23.481         0.243744
7408.93            -9899.58               -2490.65         2.4139         23.5675         0.24708
7401.88            -9874.34               -2472.46         2.41176         23.6329         0.250458
7409.95            -9906.48               -2496.53         2.40947         23.5659         0.253878
7431.09            -9922.54               -2491.45         2.41209         23.5426         0.257347
7466.73            -9891.61               -2424.89         2.41898         23.6311         0.260869
7514.45            -9857.83               -2343.38         2.43058         23.7257         0.264447
7556.22            -9863.52               -2307.31         2.44611         23.7273         0.268093
7577.9            -9848.53               -2270.62         2.45971         23.7797         0.271836
7577.27            -9803.75               -2226.48         2.46677         23.904         0.275686
7547.16            -9783.43               -2236.26         2.46656         23.9691         0.279636
7485.23            -9783.51               -2298.28         2.45676         23.9789         0.28368
7407.82            -9752.68               -2344.86         2.4366         24.049         0.287802
7361.46            -9749.78               -2388.32         2.4114         24.0397         0.291984
7377.14            -9784.77               -2407.63         2.39631         23.9404         0.296235
7433.87            -9828.71               -2394.85         2.40141         23.8308         0.300585
7504.25            -9848.56               -2344.31         2.41988         23.7873         0.305073
7573.67            -9882.71               -2309.04         2.44279         23.7149         0.309712
7628.13            -9921.83               -2293.7         2.46539         23.6384         0.314497
7643.76            -9931.14               -2287.38         2.48312         23.6407         0.319412
7592.9            -9914.76               -2321.86         2.4882         23.7023         0.32442
7500.59            -9876.87               -2376.28         2.47165         23.7952         0.329428
7426.87            -9842.76               -2415.89         2.4416         23.8595         0.334341
7416.77            -9815.58               -2398.8         2.4176         23.9045         0.339124
7458.74            -9830.29               -2371.55         2.41431         23.8645         0.34377
7505.16            -9848.83               -2343.67         2.42797         23.8315         0.348291
7550.04            -9868.04               -2318         2.44309         23.8017         0.35271
7592.08            -9833.42               -2241.34         2.4577         23.9048         0.357063
7612.56            -9775.32               -2162.76         2.47138         24.0654         0.3614
7607.39            -9742.3               -2134.91         2.47805         24.1578         0.365758
7607.04            -9721.33               -2114.29         2.47636         24.2106         0.37016
7632.54            -9728.23               -2095.68         2.47625         24.1967         0.374615
7661.09            -9717.15               -2056.06         2.48455         24.2351         0.379152
7673.13            -9740.76               -2067.63         2.49384         24.1951         0.383787
7656.94            -9756.17               -2099.23         2.49776         24.1728         0.388527
7630.11            -9760.39               -2130.28         2.49249         24.1692         0.393375
7606.81            -9740.62               -2133.81         2.48376         24.2182         0.39834
7574.17            -9732.57               -2158.4         2.47618         24.2364         0.403438
7531.52            -9732.88               -2201.36         2.46555         24.2284         0.408686
7489.58            -9745.32               -2255.74         2.45167         24.1866         0.414071
7462.23            -9728.9               -2266.67         2.43801         24.213         0.419559
7448.92            -9717.64               -2268.72         2.42911         24.2311         0.425087
7455.85            -9714.69               -2258.85         2.42478         24.236         0.430624
7475.7            -9697.79               -2222.09         2.42703         24.2876         0.436139
7476.91            -9659.43               -2182.53         2.4335         24.4012         0.441595
7475.43            -9644.36               -2168.93         2.43389         24.4567         0.446953
7491.1            -9632.63               -2141.53         2.43341         24.5064         0.452185
7514.63            -9621.31               -2106.69         2.43851         24.5599         0.457287
7531.52            -9617.39               -2085.87         2.44617         24.5901         0.46226
7557.06            -9630.39               -2073.34         2.45167         24.5612         0.467125
7628            -9660.93               -2032.93         2.45998         24.4737         0.47192
7734.45            -9709.21               -1974.76         2.48307         24.3455         0.476677
7819.73            -9726.42               -1906.69         2.51772         24.3008         0.481428
7842.87            -9750.56               -1907.69         2.54549         24.2424         0.486183
7797.89            -9754.16               -1956.27         2.55302         24.2298         0.490948
7712.45            -9761.41               -2048.97         2.53838         24.2031         0.495723
7617.96            -9775.87               -2157.91         2.51056         24.1584         0.500484
7551.12            -9777.06               -2225.94         2.4798         24.147         0.505222
7528.65            -9767.39               -2238.74         2.45805         24.1679         0.509943
7549.89            -9757.16               -2207.28         2.45073         24.1951         0.514638
7608.77            -9738.15               -2129.38         2.45765         24.246         0.519318
7685.67            -9711.19               -2025.52         2.47681         24.3186         0.523988
7746.11            -9679.95               -1933.84         2.50184         24.4022         0.52867
7766.67            -9654.84               -1888.17         2.52152         24.4659         0.53341
7736.87            -9646.23               -1909.36         2.52821         24.4817         0.538254
7674.77            -9607.8               -1933.03         2.51851         24.5579         0.54323
