dt: 0.01 CellNx: 4 b: 5.26 noParticles: 2048
Kinetic energy     Potential energy   Total energy   Temperature         Pressure   Average displacement    Radial distribution
2273.1            -17376.3               -15103.2         100         108.514         0.000255337
2493.03            -17114.4               -14621.4         0.739942         1.55127         0.000935275
2471.79            -16662.1               -14190.3         0.811534         2.89061         0.00207855
2267.08            -16055.6               -13788.5         0.804618         4.54852         0.00361999
2023.83            -15427               -13403.2         0.737982         6.18615         0.00541851
1945.42            -14925.8               -12980.4         0.658798         7.45779         0.00731871
2176.15            -14647.2               -12471         0.633276         8.18685         0.00922612
2650.71            -14581.4               -11930.7         0.708381         8.45524         0.0111429
3127.9            -14572.2               -11444.3         0.86286         8.64851         0.0131407
3419.08            -14451.1               -11032         1.0182         9.1272         0.0152931
3495.28            -14183.4               -10688.1         1.11298         9.9327         0.0176146
3445.58            -13824.1               -10378.5         1.13779         10.9185         0.0200492
3401.02            -13463.7               -10062.7         1.12161         11.8767         0.0224996
3468.88            -13195.5               -9726.6         1.1071         12.6032         0.0248731
3687.55            -13064.3               -9376.77         1.12919         13.011         0.0271193
4015.15            -13021.9               -9006.77         1.20037         13.2281         0.0292453
4366.79            -13004.3               -8637.49         1.30701         13.4058         0.0312987
4651.32            -12942.8               -8291.49         1.42148         13.6957         0.0333406
4817.83            -12834.7               -8016.87         1.5141         14.0854         0.0354111
4889.79            -12702.3               -7812.55         1.56831         14.5068         0.0375144
4918.62            -12544.7               -7626.08         1.59173         14.9643         0.0396274
4954.22            -12407.6               -7453.34         1.60111         15.3559         0.0417129
5036.4            -12320.8               -7284.38         1.6127         15.6204         0.0437406
5158.28            -12257.8               -7099.5         1.63945         15.8325         0.0457035
5298.74            -12187.2               -6888.42         1.67913         16.0671         0.0476092
5449.8            -12141.2               -6691.39         1.72485         16.2442         0.0494675
5602.74            -12106.8               -6504.02         1.77402         16.3972         0.0512955
5736.47            -12074.2               -6337.72         1.82381         16.5513         0.053114
5810.69            -12039.2               -6228.48         1.86734         16.7126         0.054944
5821.46            -11943.3               -6121.82         1.8915         17.0061         0.0567905
5827.11            -11855.4               -6028.27         1.89501         17.2602         0.058628
5887.15            -11801.9               -5914.77         1.89685         17.4262         0.0604287
5998.88            -11749.7               -5750.8         1.91639         17.6012         0.0621876
6115.32            -11698.1               -5582.78         1.95276         17.788         0.0639174
6205.81            -11648.8               -5443.03         1.99066         17.9716         0.0656349
6246.95            -11567.2               -5320.24         2.02012         18.2279         0.067352
6250.87            -11474.9               -5224.07         2.03351         18.4952         0.0690621
6256.96            -11411.4               -5154.47         2.03479         18.6794         0.0707453
6288.64            -11366.2               -5077.52         2.03677         18.815         0.0723888
6365.23            -11331.7               -4966.49         2.04708         18.9278         0.0739891
6460.66            -11309.6               -4848.98         2.07201         19.0231         0.0755572
6532.61            -11285.8               -4753.16         2.10308         19.1286         0.0771105
6571.52            -11238.2               -4666.71         2.1265         19.2846         0.0786604
6581.86            -11157               -4575.16         2.13917         19.5112         0.0802055
6579.72            -11107.8               -4528.06         2.14253         19.6506         0.0817312
6579.03            -11066.2               -4487.14         2.14184         19.766         0.0832238
6583.39            -11044.5               -4461.06         2.14161         19.8328         0.0846705
6612.52            -11041               -4428.47         2.14303         19.8555         0.0860611
6673.71            -11052.9               -4379.15         2.15251         19.847         0.0873986
6752.65            -11076.3               -4323.67         2.17243         19.8184         0.0886943
6826.94            -11093.1               -4266.13         2.19813         19.8113         0.0899687
6870.57            -11063.7               -4193.17         2.22231         19.9158         0.091248
6873.28            -11000.8               -4127.52         2.23651         20.0952         0.092545
6864.63            -10917.6               -4052.99         2.2374         20.3125         0.0938478
6887.61            -10847.3               -3959.67         2.23458         20.4964         0.0951338
6945.06            -10853.3               -3908.28         2.24206         20.5083         0.0963914
7009.82            -10880.5               -3870.67         2.26076         20.4831         0.0976343
7056.91            -10852.4               -3795.44         2.28184         20.5943         0.0988892
7082.49            -10800.7               -3718.19         2.29717         20.7543         0.100166
7089.64            -10759.4               -3669.75         2.3055         20.876         0.101461
7094.08            -10758               -3663.96         2.30783         20.889         0.102767
7103.52            -10700.4               -3596.86         2.30927         21.0287         0.104084
7124.94            -10693.9               -3568.91         2.31234         21.0433         0.105407
7158.64            -10724.1               -3565.46         2.31932         20.9746         0.106746
7182.95            -10744.8               -3561.86         2.33029         20.938         0.108116
7181.5            -10735               -3553.5         2.3382         20.979         0.109524
7163.98            -10714.4               -3550.37         2.33773         21.0436         0.110967
7154.4            -10722.5               -3568.08         2.33203         21.0382         0.112432
7159.07            -10694.5               -3535.4         2.32891         21.1236         0.113912
7167.1            -10687.3               -3520.17         2.33043         21.1627         0.115406
7172.93            -10671.8               -3498.89         2.33304         21.2204         0.116918
7188.66            -10627.3               -3438.62         2.33494         21.3428         0.118442
7229            -10621.9               -3392.91         2.34006         21.3697         0.119969
7269.77            -10608.5               -3338.75         2.35319         21.4205         0.121499
7294.43            -10566.6               -3272.2         2.36646         21.538         0.12304
7310.61            -10538.6               -3227.97         2.37449         21.6176         0.124592
7310.16            -10534.8               -3224.67         2.37975         21.6386         0.126148
7278.87            -10520.4               -3241.58         2.37961         21.6827         0.127706
7243.95            -10498.7               -3254.77         2.36942         21.7353         0.129262
7234.74            -10430.9               -3196.2         2.35806         21.8953         0.130803
7250.55            -10403.9               -3153.37         2.35506         21.9624         0.132331
7297.57            -10406.2               -3108.59         2.3602         21.9636         0.133854
7367.37            -10425.7               -3058.34         2.37551         21.932         0.135393
7431.88            -10469.1               -3037.22         2.39823         21.8526         0.136983
7461.57            -10480               -3018.46         2.41923         21.8512         0.138663
7452.83            -10413               -2960.12         2.4289         22.0265         0.140449
7454.33            -10371.5               -2917.17         2.42605         22.1287         0.142325
7489.04            -10369.8               -2880.81         2.42654         22.1416         0.144293
7532.13            -10402.6               -2870.47         2.43784         22.0882         0.146362
7525.47            -10405.8               -2880.33         2.45186         22.1163         0.148552
7444.79            -10387.5               -2942.69         2.4497         22.1848         0.150866
7339.55            -10358.9               -3019.4         2.42343         22.2531         0.153278
7273.24            -10329.7               -3056.5         2.38918         22.3098         0.155753
7265.99            -10298.2               -3032.19         2.36759         22.3781         0.15826
7294.35            -10291.3               -2997         2.36523         22.4001         0.160787
7334.38            -10279.8               -2945.43         2.37446         22.4413         0.163336
7361.57            -10262.5               -2900.93         2.38749         22.5         0.165913
7365.82            -10256.6               -2890.83         2.39635         22.5295         0.168514
7356.4            -10258.1               -2901.69         2.39773         22.5384         0.171134
7334.06            -10251.5               -2917.42         2.39466         22.5674         0.173769
7306.21            -10217.8               -2911.61         2.38739         22.6603         0.176416
7294.44            -10197.7               -2903.29         2.37832         22.7203         0.179064
7293.79            -10148.7               -2854.89         2.37449         22.8531         0.181717
7288.25            -10072.6               -2784.32         2.37428         23.0488         0.184381
7291.3            -10025.2               -2733.85         2.37248         23.1678         0.18706
7316.92            -10026.6               -2709.65         2.37347         23.1667         0.189758
7364.23            -10051.3               -2687.09         2.38181         23.1132         0.192481
7410.28            -10096.9               -2686.66         2.39721         23.0162         0.195238
7441.55            -10100.3               -2658.74         2.4122         23.0211         0.198049
7465            -10109.2               -2644.24         2.42238         23.012         0.200922
7458.05            -10088.1               -2630.03         2.43001         23.0782         0.203855
7423.71            -10048.8               -2625.12         2.42775         23.1831         0.206833
7379.82            -10002.3               -2622.49         2.41657         23.3002         0.209843
7328.18            -9957.65               -2629.47         2.40228         23.4097         0.212877
7300.84            -9973.22               -2672.38         2.38547         23.3713         0.215925
7312.55            -9971.99               -2659.44         2.37657         23.3783         0.218982
7342.68            -9988.3               -2645.62         2.38039         23.355         0.222051
7367.57            -9976.08               -2608.51         2.3902         23.4045         0.22514
7386.92            -9967.32               -2580.4         2.3983         23.4419         0.228258
7412.85            -9936.4               -2523.55         2.4046         23.5279         0.231421
7436.91            -9915.31               -2478.41         2.41304         23.5893         0.234645
7439.17            -9926.25               -2487.07         2.42087         23.571         0.237933
7423.86            -9945.64               -2521.78         2.42161         23.5235         0.241278
7412            -10003               -2591.02         2.41662         23.3794         0.244674
7407.59            -10014.2               -2606.57         2.41276         23.3492         0.248124
7396.86            -9980.45               -2583.59         2.41133         23.4326         0.251613
7379.55            -9960.61               -2581.06         2.40783         23.4842         0.255118
7363.24            -9929.21               -2565.96         2.4022         23.5619         0.258612
7371.54            -9899.75               -2528.21         2.39689         23.6335         0.262075
7424.08            -9915.79               -2491.71         2.39959         23.6027         0.265496
7483.9            -9949.13               -2465.23         2.41669         23.5441         0.268906
7508.14            -9960.61               -2452.46         2.43616         23.5401         0.272337
7510.26            -9956.42               -2446.16         2.44406         23.5639         0.275819
7506.44            -9962.28               -2455.83         2.44475         23.5593         0.279361
7488.64            -9921.28               -2432.64         2.4435         23.665         0.282956
7487.59            -9886.45               -2398.86         2.43771         23.7469         0.286612
7533.25            -9858.2               -2324.96         2.43737         23.8111         0.290329
7598.51            -9839.7               -2241.19         2.45223         23.8607         0.29411
7650.44            -9815.61               -2165.17         2.47347         23.928         0.29796
7684.6            -9859.21               -2174.61         2.49038         23.8358         0.301872
7671.71            -9892.27               -2220.56         2.5015         23.7744         0.305872
7608.42            -9889.12               -2280.69         2.4973         23.7956         0.30999
7536.33            -9845.1               -2308.77         2.4767         23.9042         0.314202
7507.33            -9845.81               -2338.47         2.45323         23.9022         0.318471
7538.27            -9892.56               -2354.29         2.44379         23.8009         0.32278
7576.97            -9895.02               -2318.05         2.45386         23.82         0.327139
7590.95            -9883.96               -2293.01         2.46646         23.8657         0.331565
7591.66            -9899.47               -2307.8         2.47101         23.8307         0.336049
7588.93            -9876.75               -2287.81         2.47124         23.8761         0.340593
7574.73            -9857.66               -2282.93         2.47036         23.912         0.345198
7547.7            -9862.11               -2314.42         2.46573         23.8918         0.349862
7522.14            -9851.43               -2329.29         2.45693         23.9107         0.354587
7491.12            -9808.21               -2317.09         2.44861         24.0159         0.359376
7470.62            -9755.16               -2284.54         2.43852         24.1506         0.36422
7465.01            -9718.31               -2253.3         2.43184         24.2569         0.36909
7437.1            -9670.2               -2233.1         2.43002         24.3948         0.373988
7397.8            -9629.83               -2232.03         2.42093         24.4975         0.378895
7401.06            -9587.97               -2186.92         2.40814         24.583         0.383798
7470.41            -9553.97               -2083.56         2.4092         24.6465         0.388702
7583.09            -9568.34               -1985.25         2.43177         24.6054         0.393605
7688.39            -9633.35               -1944.95         2.46845         24.4573         0.398531
7748.58            -9671.58               -1923         2.50273         24.3805         0.40351
7757.75            -9706.77               -1949.02         2.52232         24.3103         0.408534
7726.42            -9711               -1984.58         2.52531         24.309         0.413599
7681.19            -9712.58               -2031.39         2.51511         24.3061         0.418693
7659.69            -9757.31               -2097.62         2.50039         24.1942         0.423751
7677.73            -9786.19               -2108.46         2.49339         24.1251         0.428742
7712.55            -9776.46               -2063.91         2.49926         24.1582         0.433688
7743.45            -9768.62               -2025.17         2.51059         24.1912         0.438615
7764.82            -9772.71               -2007.89         2.52066         24.197         0.443515
7759.45            -9772.69               -2013.24         2.52761         24.2162         0.448396
7712.88            -9738.66               -2025.78         2.52586         24.3146         0.45327
7635.66            -9684.08               -2048.42         2.5107         24.4507         0.458121
7555.85            -9670.13               -2114.28         2.48557         24.4745         0.46293
7502.77            -9656.45               -2153.68         2.45959         24.4862         0.467681
7486.24            -9676.64               -2190.4         2.44231         24.4161         0.472399
7496.62            -9680.85               -2184.23         2.43693         24.3896         0.477152
7525.41            -9701.89               -2176.49         2.44031         24.3287         0.481995
7573.29            -9737.11               -2163.82         2.44968         24.2414         0.486983
7623.35            -9733.67               -2110.32         2.46526         24.2573         0.492141
7650.49            -9717.65               -2067.16         2.48156         24.3082         0.497462
7658.62            -9676.84               -2018.22         2.49039         24.4127         0.502909
7676.14            -9618.06               -1941.91         2.49304         24.5506         0.508449
7718.36            -9609.86               -1891.5         2.49874         24.5638         0.514032
7759.03            -9634.08               -1875.06         2.51249         24.5005         0.519616
7771.14            -9659.67               -1888.53         2.52572         24.4299         0.525172
7759.13            -9698.43               -1939.3         2.52967         24.3198         0.530666
7730.66            -9736.38               -2005.71         2.52576         24.2091         0.536073
7694.64            -9781.52               -2086.88         2.51649         24.0836         0.541339
7668.7            -9855.18               -2186.49         2.50476         23.8966         0.546432
7638.25            -9916.26               -2278.02         2.49632         23.7501         0.551361
7600.09            -9910.88               -2310.78         2.48641         23.7643         0.55616
7588.66            -9838.98               -2250.32         2.47399         23.9374         0.560898
7615.89            -9802.13               -2186.24         2.47027         24.0377         0.565649
7651.86            -9798.66               -2146.8         2.47913         24.0728         0.570467
7656.85            -9742.43               -2085.57         2.49084         24.2373         0.575397
7637.96            -9664.4               -2026.45         2.49247         24.4427         0.580431
7616.66            -9637.1               -2020.44         2.48631         24.5151         0.585579
7602.07            -9645.55               -2043.48         2.47938         24.4952         0.590849
7598.26            -9692.29               -2094.03         2.47463         24.3804         0.596243
